AccX1,AccY1,AccZ1,GyrX1,GyrY1,GyrZ1,AccX2,AccY2,AccZ2,GyrX2,GyrY2,GyrZ2,AccX3,AccY3,AccZ3,GyrX3,GyrY3,GyrZ3,AccX4,AccY4,AccZ4,GyrX4,GyrY4,GyrZ4,AccX5,AccY5,AccZ5,GyrX5,GyrY5,GyrZ5,AccX6,AccY6,AccZ6,GyrX6,GyrY6,GyrZ6,AccX7,AccY7,AccZ7,GyrX7,GyrY7,GyrZ7,AccX8,AccY8,AccZ8,GyrX8,GyrY8,GyrZ8,AccX9,AccY9,AccZ9,GyrX9,GyrY9,GyrZ9,AccX10,AccY10,AccZ10,GyrX10,GyrY10,GyrZ10,AccX11,AccY11,AccZ11,GyrX11,GyrY11,GyrZ11,AccX12,AccY12,AccZ12,GyrX12,GyrY12,GyrZ12,AccX13,AccY13,AccZ13,GyrX13,GyrY13,GyrZ13,AccX14,AccY14,AccZ14,GyrX14,GyrY14,GyrZ14,AccX15,AccY15,AccZ15,GyrX15,GyrY15,GyrZ15,AccX16,AccY16,AccZ16,GyrX16,GyrY16,GyrZ16,AccX17,AccY17,AccZ17,GyrX17,GyrY17,GyrZ17,AccX18,AccY18,AccZ18,GyrX18,GyrY18,GyrZ18,AccX19,AccY19,AccZ19,GyrX19,GyrY19,GyrZ19,AccX20,AccY20,AccZ20,GyrX20,GyrY20,GyrZ20,AccX21,AccY21,AccZ21,GyrX21,GyrY21,GyrZ21,AccX22,AccY22,AccZ22,GyrX22,GyrY22,GyrZ22,AccX23,AccY23,AccZ23,GyrX23,GyrY23,GyrZ23,AccX24,AccY24,AccZ24,GyrX24,GyrY24,GyrZ24,AccX25,AccY25,AccZ25,GyrX25,GyrY25,GyrZ25,AccX26,AccY26,AccZ26,GyrX26,GyrY26,GyrZ26,AccX27,AccY27,AccZ27,GyrX27,GyrY27,GyrZ27,AccX28,AccY28,AccZ28,GyrX28,GyrY28,GyrZ28,AccX29,AccY29,AccZ29,GyrX29,GyrY29,GyrZ29,AccX30,AccY30,AccZ30,GyrX30,GyrY30,GyrZ30,Label
1530,-382,-1235,-233,68,-978,1899,-545,-1260,-230,482,-108,1081,-111,-624,-233,-511,-520,678,-130,-1029,-233,70,289,498,-212,-897,-235,-43,130,516,-265,-843,-236,-172,9,309,-206,-708,-232,281,-150,216,-174,-726,-236,34,-7,221,-234,-670,-235,-108,-262,14,-127,-842,-233,-71,-111,99,-262,-777,-235,99,24,31,-255,-724,-233,-9,100,178,-234,-716,-235,18,-38,38,-250,-739,-233,-38,-13,95,-235,-794,-235,-38,-16,120,-234,-756,-233,18,41,131,-225,-716,-235,-18,-19,100,-254,-738,-233,-63,-45,143,-220,-763,-233,-48,-23,87,-222,-728,-233,-13,16,115,-220,-769,-232,-9,-6,135,-235,-738,-230,-14,11,100,-232,-779,-235,-24,0,144,-233,-753,-235,-22,-6,91,-216,-765,-236,-25,6,105,-227,-750,-232,-9,-13,135,-204,-761,-236,-11,21,147,-235,-769,-232,-17,-26,134,-225,-775,-233,-6,0,118,-228,-770,-235,-21,-26,fall
-1300,-322,-669,-236,-825,2232,-644,-21,416,-241,-391,2684,1685,589,-543,-236,109,417,1607,-191,-39,-235,546,-872,1155,95,-616,-240,214,-1155,1028,-267,-692,-241,-77,-461,660,-72,-1002,-236,-230,-5,639,-150,-898,-238,-47,98,570,-78,-710,-240,54,70,474,-138,-612,-238,164,18,390,-104,-720,-240,21,-123,416,-198,-782,-238,-73,-1,417,-205,-764,-236,10,-91,343,-207,-697,-238,-17,-25,398,-203,-753,-240,22,-23,416,-207,-735,-238,-55,-52,341,-276,-716,-236,13,9,276,-167,-718,-238,3,-81,370,-239,-694,-236,-24,-72,370,-260,-728,-238,11,-59,277,-236,-698,-240,-52,-4,314,-244,-712,-238,-47,-79,292,-266,-747,-240,-59,-53,344,-256,-741,-243,-44,-24,306,-214,-760,-240,-28,-37,347,-230,-740,-238,-27,-17,320,-209,-691,-240,-56,5,338,-203,-768,-235,-75,-46,279,-208,-751,-240,0,-15,298,-269,-698,-238,-33,-83,fall
-2476,-841,-2176,-393,-659,2376,-1652,160,872,-395,235,3276,1149,-94,-180,-392,833,1756,427,-106,-1031,-393,-255,-1552,1904,-746,-1112,-388,524,-910,242,-344,-1046,-393,-382,568,330,-468,-239,-392,-20,265,393,-345,-527,-392,45,-296,230,-493,-872,-393,11,-20,151,-477,-842,-395,0,-23,132,-429,-530,-390,-37,-129,177,-409,-632,-392,-23,-44,144,-458,-719,-390,-13,-35,198,-464,-664,-392,10,-18,222,-442,-713,-390,-4,-30,215,-486,-701,-392,-17,1,221,-464,-721,-393,-18,-17,233,-464,-712,-393,-29,-12,191,-444,-691,-392,-26,-8,206,-463,-711,-392,-44,-38,208,-468,-716,-388,-22,-8,206,-442,-704,-393,-22,0,212,-464,-716,-392,-15,0,220,-458,-696,-393,-18,8,213,-450,-712,-392,-21,-9,222,-460,-698,-390,-21,-2,201,-457,-699,-388,-30,3,214,-454,-704,-390,-14,-4,214,-440,-700,-392,-32,-6,178,-454,-683,-390,-30,8,fall
-3017,-403,-1860,-388,26,2033,-2690,-999,-714,-392,-85,3276,-972,138,826,-387,-207,3152,751,-207,222,-388,608,1347,311,-67,-584,-387,-264,-283,3276,-406,-2300,-390,-479,3276,429,-1968,1264,-388,1650,1521,2046,-456,-794,-387,-300,-1094,440,-316,-234,-388,20,-379,436,-414,-883,-392,-34,-264,400,-523,-785,-390,-36,-155,478,-426,-552,-392,-13,3,518,-378,-594,-390,-12,-34,477,-430,-565,-388,4,35,480,-449,-684,-387,24,13,502,-444,-626,-388,-41,59,528,-444,-598,-387,-27,1,513,-433,-623,-388,-24,54,551,-459,-688,-387,-9,6,540,-417,-636,-388,-41,1,548,-396,-630,-390,7,-18,514,-437,-652,-392,-33,-14,526,-437,-606,-387,-30,-18,543,-392,-605,-387,-23,-17,571,-413,-685,-392,-33,-35,603,-389,-652,-387,-6,-11,540,-417,-670,-388,0,-33,579,-413,-688,-387,-25,-32,580,-380,-676,-388,-17,-64,517,-400,-590,-390,-52,-53,fall
1257,-274,-250,-379,314,504,1210,-504,-1339,-382,-82,-1083,1462,-395,-1766,-384,105,964,639,-180,-737,-382,-89,-48,270,-313,-346,-387,-18,69,513,-415,-898,-384,156,-160,461,-368,-869,-385,-44,288,540,-355,-566,-382,49,-24,497,-365,-594,-385,-51,-17,484,-394,-754,-380,-58,54,501,-371,-692,-385,-55,-42,485,-374,-586,-387,-48,19,517,-348,-641,-385,-49,17,536,-337,-713,-387,-15,12,538,-335,-654,-385,9,-9,498,-330,-625,-382,-12,6,529,-360,-695,-384,3,3,520,-376,-691,-382,-15,-5,530,-348,-641,-384,-22,-33,546,-338,-682,-385,-22,-24,516,-347,-641,-384,-17,15,528,-342,-679,-382,-42,-14,510,-354,-670,-380,-44,-7,524,-352,-665,-385,-21,-7,500,-346,-682,-384,-27,6,520,-348,-672,-382,-18,-39,542,-358,-678,-384,1,80,488,-336,-652,-384,-15,-35,469,-357,-624,-385,-10,-19,523,-348,-662,-382,-14,-31,fall
-2474,-775,-2472,-380,198,2146,-2550,-374,-305,-380,181,3220,-829,0,527,-379,107,3144,825,-86,124,-380,590,1362,700,-52,-1241,-379,-516,-1267,2156,-1215,-226,-380,621,285,707,-368,-773,-382,0,400,377,-601,-119,-379,-170,-94,697,-586,-724,-384,10,-237,356,-583,-908,-382,-12,-391,586,-509,-750,-384,-70,412,457,-420,-463,-382,-67,-35,553,-430,-612,-384,-27,2,526,-428,-654,-385,-26,11,544,-437,-627,-384,25,38,580,-422,-628,-382,-10,50,616,-458,-635,-382,1,10,565,-445,-620,-384,-34,-51,553,-458,-596,-379,-44,14,605,-470,-571,-380,-8,-49,570,-442,-595,-379,-5,-40,554,-442,-621,-377,-16,-9,583,-448,-610,-379,-9,42,594,-466,-620,-380,-28,39,574,-450,-575,-379,-25,-26,579,-453,-640,-380,-46,-32,619,-437,-652,-379,-40,45,554,-442,-603,-379,-3,0,586,-457,-615,-382,-24,15,584,-441,-601,-379,-51,-51,fall
-299,-153,858,-374,-58,32,-165,18,426,-376,-152,464,-2604,-1420,-3276,-374,102,3276,-1697,-182,-562,-377,557,3276,952,-246,-51,-379,1135,1289,873,-430,-150,-377,-1285,-812,1439,-315,-572,-379,-417,-613,1874,-691,-1682,-379,96,417,310,-583,-818,-377,379,174,406,-704,-71,-379,32,-604,462,-662,-621,-377,-29,196,508,-535,-513,-379,27,-289,517,-654,-607,-377,-18,191,459,-645,-294,-379,-215,-279,451,-556,-666,-377,-27,-45,474,-570,-633,-376,31,15,451,-559,-642,-376,-5,-58,469,-562,-636,-377,59,-12,467,-589,-615,-376,-10,7,522,-624,-595,-377,19,225,554,-560,-623,-376,26,2,474,-626,-594,-380,1,-24,491,-574,-559,-379,25,-15,462,-595,-548,-377,-40,-6,466,-577,-623,-376,0,-2,494,-600,-571,-374,-21,-10,508,-587,-596,-376,-19,-16,478,-609,-603,-377,-22,21,500,-620,-600,-376,-49,16,501,-588,-602,-377,-20,-6,fall
-3276,980,-2386,-369,517,1263,-1296,-1633,1684,-372,1036,3276,337,-231,-62,-374,2426,519,971,-1339,348,-372,-762,-232,1286,-1601,598,-374,501,1078,869,-1331,-862,-372,-260,-275,674,-930,-178,-372,309,353,468,-1399,48,-372,-2740,-1615,494,-768,-351,-372,-289,-389,439,-900,-629,-371,-180,2,478,-778,-523,-372,-51,-76,558,-745,-487,-371,-14,-116,483,-716,-488,-371,-89,-55,505,-744,-518,-372,-20,35,513,-744,-582,-369,-3,7,527,-756,-512,-376,-34,20,569,-774,-534,-368,-62,-61,507,-747,-530,-372,-89,-87,484,-709,-552,-371,-41,-35,509,-758,-533,-376,-55,-57,457,-708,-560,-371,-48,-46,456,-720,-582,-372,-18,-27,448,-712,-591,-372,28,32,485,-718,-513,-371,-6,9,450,-702,-532,-372,-8,-8,499,-739,-537,-371,-24,1,484,-714,-563,-372,-14,56,507,-716,-525,-374,-52,12,481,-726,-574,-372,-54,29,507,-698,-509,-371,-55,-8,fall
-427,-451,-180,-368,115,722,-2736,-1091,-3232,-369,252,3276,-2178,-612,-552,-369,-250,3276,1094,-302,-692,-368,1090,418,1682,-390,-727,-369,-1729,-632,1304,-793,-748,-371,-124,138,630,220,-1257,-369,11,744,540,-362,-843,-369,169,-638,139,-380,-713,-368,471,-187,193,-384,-632,-366,164,85,71,-468,-542,-368,155,103,226,-568,-726,-369,94,-36,246,-528,-808,-368,53,33,320,-514,-610,-369,-157,-28,304,-490,-633,-368,-66,-30,272,-502,-773,-366,-64,-107,234,-446,-722,-366,-47,-51,312,-469,-675,-374,-21,-17,238,-454,-690,-369,32,-8,289,-494,-689,-368,34,-5,264,-500,-681,-369,27,28,284,-500,-735,-368,-46,-121,286,-515,-738,-369,-39,-167,233,-447,-705,-368,0,-6,220,-488,-682,-369,-36,7,192,-475,-702,-368,0,57,224,-512,-700,-366,7,-8,251,-489,-706,-368,-21,-8,247,-498,-706,-366,-23,-10,224,-494,-738,-371,30,-6,fall
-3276,-258,398,-368,-380,1131,-838,-462,778,-368,60,1665,-456,-2,581,-366,-327,1157,-738,-14,-131,-371,162,2305,-368,-40,-649,-366,306,3254,249,-501,-2791,-364,42,254,2492,-670,-1424,-369,-821,-421,461,-203,-322,-366,496,218,170,-233,-487,-368,189,302,-62,-512,-1146,-366,59,-239,254,-458,-1032,-364,-68,-140,44,-382,-600,-366,-83,64,98,-342,-608,-368,-236,-30,42,-372,-813,-369,-254,-33,93,-324,-820,-368,-79,42,58,-303,-724,-368,30,2,54,-264,-713,-366,-91,-45,77,-308,-777,-364,-35,-14,70,-290,-786,-369,-3,-1,98,-282,-737,-368,-53,-9,28,-293,-752,-366,-1,-32,136,-305,-787,-368,-45,-26,75,-268,-742,-366,-41,-26,82,-281,-786,-368,-38,-21,78,-270,-784,-366,-16,-5,56,-265,-771,-368,-9,-7,70,-246,-739,-366,-5,-7,86,-280,-757,-368,-13,-11,75,-276,-747,-366,-2,-31,83,-282,-748,-366,-36,0,fall
-1036,-748,-1199,-361,280,3052,-3276,-1202,-600,-360,-866,2971,-1163,-484,-73,-361,-113,3276,534,-100,-296,-360,1390,1069,811,92,-1080,-363,-577,-335,1828,-1486,-963,-361,-647,-122,924,-722,-903,-363,651,1241,401,-530,-794,-364,102,102,763,-961,-710,-363,25,-81,367,-688,-605,-364,194,-30,246,-754,-426,-363,98,86,460,-897,-482,-364,145,139,400,-843,-520,-366,60,46,408,-909,-470,-360,-26,51,373,-855,-427,-364,27,66,464,-899,-434,-363,-33,43,472,-878,-522,-361,-44,-24,473,-866,-453,-363,-44,-35,426,-838,-451,-361,-73,-5,433,-865,-473,-363,-54,7,464,-868,-497,-364,-32,15,482,-829,-462,-363,-5,8,462,-838,-450,-361,-22,-3,464,-856,-481,-363,-11,-20,450,-848,-478,-364,-28,13,448,-846,-481,-360,-38,-4,468,-840,-446,-364,-36,31,469,-831,-467,-363,-18,-5,458,-846,-514,-364,-27,-37,435,-857,-514,-363,-69,12,fall
-2506,-904,-676,-360,-699,3276,1117,0,-1006,-361,-16,-48,-287,-214,-454,-363,266,-197,539,-302,-680,-358,12,-163,582,-478,-1028,-363,-263,388,29,-538,-1006,-361,267,89,-1,-424,-888,-358,13,12,-58,-408,-731,-356,-80,58,-88,-329,-687,-360,-52,95,19,-385,-746,-360,8,-109,29,-376,-735,-361,19,119,-26,-380,-795,-356,7,31,32,-396,-726,-358,-66,15,48,-388,-780,-363,-51,28,28,-357,-728,-358,-19,8,25,-365,-764,-360,-30,2,-2,-388,-714,-358,-24,-27,60,-397,-718,-360,-59,-40,14,-364,-775,-358,-6,-27,-23,-357,-786,-360,-5,-31,-14,-368,-719,-358,-44,-10,24,-380,-710,-360,-17,-2,38,-375,-755,-358,-25,-23,4,-339,-747,-360,-14,-24,-25,-381,-731,-361,-56,-1,56,-362,-721,-360,-61,0,26,-373,-776,-358,-45,31,36,-368,-736,-361,-34,-27,-6,-347,-732,-360,-14,-18,16,-357,-758,-358,-34,-18,fall
-972,-672,-811,-356,116,2514,-3255,-982,-1021,-356,-658,2927,-984,-334,-151,-352,-187,3276,469,-770,-1973,-356,283,1104,823,-305,-437,-355,-466,-510,863,-274,-1282,-355,-143,-488,437,-408,-1858,-356,-218,264,154,-403,-1082,-358,277,-61,-20,-143,-901,-356,-151,-122,5,-426,-773,-358,81,-185,-150,-341,-730,-356,74,-156,-98,-389,-732,-358,6,-22,-133,-373,-752,-356,-2,27,-74,-359,-769,-355,-81,-72,-75,-345,-728,-356,22,-36,-22,-377,-782,-355,-24,27,-94,-383,-785,-353,-22,-41,-40,-358,-787,-358,10,-17,-40,-346,-715,-353,-7,-18,-122,-353,-706,-353,-19,-39,-121,-411,-662,-355,-8,12,-149,-390,-726,-356,-27,6,-79,-347,-734,-355,-35,-21,-102,-381,-713,-356,-37,-37,-162,-341,-726,-355,-27,-12,-198,-389,-708,-356,-36,10,-111,-361,-736,-355,-15,-3,-129,-368,-713,-356,-1,-5,-141,-386,-723,-358,-27,5,-151,-374,-724,-356,-18,11,fall
-564,-10,632,-352,77,2550,324,-788,-2464,-353,129,947,1831,-770,-1628,-352,454,461,626,-488,-1367,-352,1058,139,748,-752,-585,-353,408,17,596,-1124,-503,-352,-53,-319,156,-875,-331,-353,222,75,312,-1238,-519,-355,-397,-110,266,-904,-550,-353,-139,-19,202,-765,-546,-353,-220,-164,95,-719,-710,-352,-231,-346,100,-645,-675,-353,-357,-365,38,-616,-599,-355,-264,-204,-8,-530,-652,-353,-241,-251,-119,-500,-657,-352,-241,-193,-137,-469,-702,-356,-177,-105,-111,-445,-708,-353,-178,-23,-163,-416,-752,-352,-130,-41,-88,-411,-720,-353,-51,-25,-220,-379,-663,-355,-25,7,-173,-424,-724,-353,-47,11,-181,-414,-741,-355,-24,31,-175,-418,-718,-356,-23,-20,-162,-375,-717,-352,-25,-3,-136,-401,-731,-353,-15,-33,-136,-393,-692,-355,-13,-9,-174,-389,-720,-350,-8,-16,-147,-402,-696,-355,-48,-12,-134,-368,-758,-353,-22,37,-118,-374,-713,-353,-26,-27,fall
-2867,-762,-1977,-350,-281,3276,-1356,-462,-384,-348,238,3276,1141,-300,-744,-350,162,-291,933,-350,-1045,-352,-463,-411,752,47,-746,-348,-525,498,804,-462,-1386,-350,-79,468,326,-132,-974,-348,-142,-111,184,-179,-875,-350,63,-164,208,-280,-784,-352,60,75,31,-116,-700,-353,75,-151,144,-243,-728,-352,13,-112,218,-254,-824,-350,-53,-161,62,-154,-832,-352,-174,-148,48,-322,-757,-353,-6,-106,140,-122,-729,-348,25,-46,68,-206,-712,-352,-8,-81,38,-228,-796,-350,71,13,50,-188,-813,-353,15,-4,60,-212,-752,-350,-22,-15,63,-220,-760,-355,32,2,16,-301,-791,-353,-51,-42,110,-215,-833,-352,-35,-46,34,-212,-772,-350,-56,37,68,-187,-658,-348,43,5,1,-240,-732,-350,40,-60,70,-265,-821,-352,-69,-8,96,-266,-737,-350,-6,-12,55,-260,-754,-352,-58,14,61,-270,-668,-350,27,-80,6,-273,-686,-348,-56,15,fall
-3276,-37,122,-347,-1015,3158,-1590,-142,540,-347,-372,3276,471,-14,-177,-347,-113,313,676,-266,-853,-347,-211,-652,1005,-226,-1668,-348,-461,736,182,-491,-1208,-347,-390,88,77,-223,-744,-348,66,-136,-1,-311,-686,-348,-27,-163,-171,-255,-629,-347,57,-260,-204,-382,-702,-344,77,-291,-173,-214,-700,-344,5,-106,-227,-289,-652,-345,26,-88,-222,-261,-651,-347,-52,-72,-230,-281,-710,-345,-52,-28,-282,-285,-688,-350,-20,29,-192,-292,-750,-345,20,11,-238,-288,-716,-344,7,13,-233,-292,-742,-348,-28,-12,-258,-324,-728,-344,-25,-1,-205,-287,-738,-348,-22,-41,-224,-282,-715,-348,-21,-12,-266,-252,-742,-347,-35,-35,-239,-280,-733,-345,-7,-33,-170,-254,-764,-347,-47,-26,-190,-295,-736,-344,3,-21,-245,-264,-712,-344,-59,-26,-215,-276,-718,-348,40,-26,-230,-284,-719,-347,-51,-20,-222,-263,-744,-345,-21,-10,-254,-298,-750,-347,-24,-26,fall
-578,-160,932,-345,-79,161,-2364,-696,-1614,-344,241,2078,-2020,-380,759,-342,-294,2817,-854,-88,757,-344,66,2811,778,-168,-1112,-340,-275,-1215,780,-319,-1146,-342,-182,-378,1212,-748,-1568,-344,-638,296,108,-265,-932,-340,6,-76,133,-332,-801,-342,-5,-228,40,-447,-915,-344,10,-256,-56,-318,-752,-347,20,-167,-110,-357,-686,-344,46,-151,-189,-346,-647,-345,-8,-83,-210,-367,-657,-340,-119,-27,-173,-343,-709,-342,-66,0,-148,-342,-714,-344,-18,-33,-90,-332,-709,-345,-21,-25,-117,-367,-792,-344,51,-47,-115,-352,-766,-345,-74,-16,-180,-363,-737,-344,-56,-71,-190,-372,-734,-345,9,-62,-164,-347,-686,-344,-44,-26,-254,-360,-768,-342,-68,-91,-227,-263,-789,-342,-98,-120,-150,-314,-690,-344,-34,-96,-242,-318,-671,-344,-26,-44,-316,-352,-720,-340,-5,-53,-257,-328,-744,-342,-12,-89,-236,-343,-692,-344,19,-7,-270,-304,-717,-342,18,-31,fall
-1614,-118,851,-339,-351,3049,-846,-450,-920,-340,481,1744,933,-258,-1100,-339,-165,-1563,177,-241,-643,-334,-137,-407,696,-380,-1252,-342,-662,557,172,-252,-904,-337,54,85,-88,-354,-959,-340,174,6,-13,-428,-888,-339,39,-135,-132,-358,-596,-340,49,-188,-94,-318,-670,-339,-6,-164,-173,-305,-665,-337,-51,-149,-194,-379,-751,-339,-63,-63,-224,-322,-728,-337,-52,1,-162,-300,-690,-339,-62,-18,-175,-310,-704,-337,4,-51,-171,-326,-788,-339,-7,-21,-155,-271,-746,-337,5,-23,-133,-291,-736,-339,1,-11,-138,-323,-746,-336,17,-20,-126,-282,-786,-337,-38,4,-154,-309,-756,-340,18,-1,-219,-339,-758,-337,10,33,-154,-277,-762,-336,22,-38,-178,-337,-676,-340,-10,-56,-244,-298,-777,-339,46,-74,-244,-281,-713,-337,-141,-70,-236,-328,-677,-339,-26,-57,-264,-265,-698,-337,-53,0,-249,-298,-690,-336,-40,5,-223,-285,-730,-337,-10,-10,fall
-3276,-264,-2514,-334,-1728,3276,-810,-198,424,-337,-400,3276,871,-148,-617,-336,-252,161,954,-70,-906,-337,-580,-1270,994,-30,-1799,-336,248,76,170,-422,-1214,-339,-290,329,-18,-270,-999,-337,254,-146,-196,-336,-909,-339,212,-163,-156,-288,-723,-337,123,-125,-269,-293,-705,-336,104,-175,-301,-332,-678,-337,38,-91,-224,-255,-743,-339,2,-52,-233,-379,-714,-334,31,-65,-248,-324,-715,-336,-37,-9,-248,-374,-674,-337,-66,20,-331,-346,-659,-336,-59,16,-220,-347,-745,-337,-34,-11,-243,-352,-712,-336,-19,33,-258,-350,-718,-337,-57,0,-294,-356,-729,-336,19,-21,-289,-282,-774,-336,-193,-33,-178,-440,-716,-337,65,9,-266,-227,-740,-337,-58,-57,-173,-362,-768,-337,-28,-48,-272,-270,-724,-339,-20,-5,-227,-293,-697,-334,-10,-11,-240,-296,-716,-332,-6,15,-228,-288,-716,-337,-4,-13,-234,-331,-719,-336,32,14,-274,-288,-700,-337,-20,17,fall
-3276,-1067,-277,-336,-2771,3276,-621,90,-10,-334,191,3276,1080,-394,-1422,-336,-408,-61,684,-406,-859,-336,-667,-1095,513,461,-1556,-334,261,-346,96,-600,-1046,-332,-267,244,0,-264,-963,-331,344,-141,-190,-284,-903,-332,36,-104,-125,-299,-752,-334,123,-122,-204,-242,-747,-336,232,-124,-346,-401,-632,-331,15,-74,-274,-408,-636,-332,119,-64,-303,-358,-655,-334,53,-17,-255,-417,-681,-331,-31,5,-204,-427,-707,-332,5,-29,-240,-383,-696,-334,-47,-93,-245,-477,-685,-332,158,-63,-223,-376,-715,-334,-33,-44,-231,-438,-678,-329,-51,30,-196,-425,-728,-334,-12,2,-220,-430,-682,-332,-28,-4,-266,-417,-683,-334,-45,25,-233,-420,-693,-332,-19,18,-206,-386,-668,-334,-18,39,-168,-401,-713,-332,-14,-20,-232,-435,-713,-334,-32,6,-234,-436,-670,-336,-29,0,-232,-396,-662,-337,-13,12,-198,-422,-686,-334,-14,-55,-248,-411,-683,-332,-32,-33,fall
-2584,-710,-1798,-267,-109,2327,-1681,-455,-158,-262,-190,3276,-587,-111,1127,-264,239,2855,1218,-187,-384,-268,-92,-1020,1183,-412,-1049,-267,95,-785,919,-588,-1280,-267,-347,38,164,-619,-904,-262,-163,-5,140,-312,-862,-264,-147,-300,90,-466,-895,-265,-126,-59,-176,-346,-702,-267,-30,-81,-55,-388,-682,-265,-81,-82,-114,-330,-684,-264,10,-105,-133,-348,-702,-267,-22,-74,-78,-327,-734,-264,5,-89,-140,-354,-680,-265,56,-55,-143,-344,-724,-264,-17,-110,-140,-375,-777,-265,-21,-47,-179,-358,-742,-264,-18,-16,-171,-378,-734,-265,-26,-64,-168,-372,-690,-267,-13,-48,-196,-390,-666,-265,-31,-41,-194,-342,-712,-264,-5,2,-205,-358,-672,-265,-22,25,-206,-374,-673,-270,15,-6,-192,-365,-729,-265,-25,-12,-173,-372,-712,-264,4,-17,-182,-373,-734,-265,-11,-4,-176,-378,-705,-267,-28,0,-187,-362,-703,-262,-21,-15,-208,-378,-700,-267,-62,6,fall
-661,-267,-249,-270,-159,1705,-3114,-805,-1649,-268,-99,2495,-1257,-172,349,-270,102,2983,-190,141,956,-272,71,2900,1451,-265,-814,-273,-38,-1076,729,-169,-1206,-268,119,-640,1159,-552,-1632,-273,-533,748,242,-564,-716,-273,-102,50,246,-398,-592,-272,-46,-324,-57,-475,-832,-273,-54,-206,-70,-463,-732,-273,-42,-193,-177,-374,-647,-273,-47,-146,-82,-370,-636,-272,-44,-64,-100,-374,-660,-273,-114,-114,-142,-369,-663,-272,-59,-81,-114,-378,-702,-273,-37,-67,-154,-363,-698,-268,-8,-34,-126,-362,-688,-273,-10,-13,-174,-346,-719,-272,-44,24,-184,-383,-712,-273,61,-73,-150,-341,-791,-275,-40,-84,-201,-379,-687,-273,78,-205,-176,-329,-592,-272,-119,-181,-242,-433,-700,-272,54,-181,-211,-346,-773,-270,13,-41,-282,-390,-657,-270,-23,98,-252,-367,-728,-270,-8,-29,-244,-372,-721,-272,-37,-18,-217,-380,-668,-273,-19,-15,-282,-389,-685,-272,-56,72,fall
672,-1096,-1104,-278,-409,1043,178,-605,-731,-273,-406,-126,502,-578,-362,-280,69,-235,424,-616,-924,-272,105,-170,-2,-447,-792,-276,-134,-257,121,-536,-736,-275,-272,274,12,-511,-682,-276,-59,-16,42,-481,-636,-272,-59,-71,50,-442,-718,-273,-66,-3,38,-448,-773,-276,-111,17,54,-442,-680,-278,-53,-61,15,-356,-790,-276,33,-3,13,-430,-767,-272,14,-22,-16,-440,-621,-276,-56,36,24,-444,-690,-272,24,-4,-18,-457,-755,-276,38,-94,64,-442,-696,-272,-24,9,-74,-432,-717,-276,-25,30,-2,-415,-742,-275,-66,-1,0,-429,-726,-280,-16,19,28,-481,-739,-275,6,-62,-36,-452,-739,-273,-38,17,-6,-436,-696,-278,-6,9,-9,-469,-726,-273,-28,14,38,-421,-707,-275,-20,0,2,-444,-704,-276,-27,-26,-22,-407,-684,-275,-32,18,19,-435,-731,-276,-26,9,61,-408,-732,-272,-2,16,-6,-422,-698,-273,-14,-17,fall
-805,-7,1260,-275,-738,1767,729,-1099,-3276,-276,485,947,2930,133,-2823,-275,-307,667,552,-175,35,-273,48,3194,594,-406,108,-275,-73,-157,1200,-422,-347,-276,-65,-1170,657,-525,-674,-276,-81,-1561,378,-436,-858,-275,-204,-1434,116,-437,-744,-276,-17,-271,109,-475,-704,-278,-43,-161,75,-384,-670,-276,-27,-88,149,-410,-661,-275,-24,-30,121,-384,-721,-276,21,-72,145,-410,-818,-278,-10,1,117,-463,-717,-276,-11,-13,153,-427,-706,-275,-51,-19,128,-404,-768,-276,-18,-75,146,-423,-749,-275,-51,43,126,-410,-682,-273,27,-11,91,-402,-698,-275,-26,-48,136,-418,-695,-273,-48,-11,106,-451,-698,-275,-5,54,94,-388,-693,-276,-28,-27,94,-446,-734,-275,-5,-37,158,-404,-766,-280,-8,-20,123,-405,-678,-278,-80,19,104,-432,-683,-273,-15,-37,78,-415,-712,-275,-1,-19,135,-390,-678,-276,29,-40,112,-453,-772,-275,-9,1,fall
-2022,-550,-3276,-275,953,3276,523,-472,-1517,-276,1503,646,-1144,-380,571,-275,-323,2856,1828,-351,-996,-275,214,-728,886,-490,-1069,-273,92,-167,255,-256,-998,-275,301,1045,341,-618,-834,-273,-151,73,310,-502,-870,-276,-17,77,314,-500,-796,-276,-76,-117,186,-533,-666,-275,-76,-93,265,-456,-699,-273,-70,-76,233,-387,-611,-275,-38,-69,118,-430,-596,-276,-74,-67,237,-374,-691,-275,14,-7,178,-405,-692,-276,-9,-21,226,-397,-760,-278,-22,4,248,-451,-649,-276,-72,8,232,-468,-726,-275,-16,22,155,-396,-786,-276,-33,21,211,-473,-679,-275,-21,5,228,-336,-760,-276,-33,-98,206,-396,-751,-278,-35,-43,178,-412,-640,-276,-39,-33,134,-444,-750,-275,-39,21,214,-417,-701,-276,71,43,202,-385,-694,-275,-9,-31,258,-401,-762,-276,-92,-37,188,-427,-679,-275,-81,-112,177,-402,-630,-276,-34,-28,211,-459,-723,-275,-12,43,fall
-2211,-1047,-2153,-278,-550,3276,-1170,-760,-647,-276,740,2112,1124,-311,-973,-280,-422,1469,1539,-462,-1266,-280,147,-1207,1174,-605,-1345,-276,-272,-89,106,-291,-1129,-278,-141,192,70,-398,-871,-280,-55,-32,-54,-380,-810,-278,-91,-200,-156,-416,-665,-283,-13,-225,-169,-246,-645,-278,-23,-158,-179,-350,-683,-280,-17,-222,-148,-328,-744,-278,3,-197,-120,-308,-724,-280,-18,-67,-244,-306,-746,-278,-1,-27,-170,-343,-799,-280,15,-90,-240,-325,-716,-278,-46,29,-192,-348,-714,-280,-9,-17,-243,-350,-679,-280,-89,-6,-288,-337,-710,-280,-21,7,-235,-370,-774,-280,-16,19,-222,-300,-785,-281,28,-23,-292,-345,-756,-276,-36,-48,-273,-340,-744,-278,-9,-43,-216,-355,-673,-276,-15,-64,-329,-334,-621,-278,-44,-22,-349,-330,-694,-276,-8,-7,-248,-338,-718,-281,-42,-41,-248,-360,-694,-280,-3,-18,-266,-349,-680,-281,28,-8,-291,-367,-659,-280,-21,-52,fall
-1332,-455,-1436,-280,464,2993,-3276,312,-449,-278,659,2953,-1261,-1428,-570,-281,502,1981,237,-120,-374,-283,-753,377,1490,-558,-885,-283,373,-870,972,-682,-1726,-283,-300,31,68,-374,-824,-281,-206,149,34,-528,-754,-280,-403,-287,-79,-409,-710,-281,-33,-304,-138,-312,-757,-283,-146,-328,-186,-328,-770,-284,-96,-141,-172,-345,-745,-283,-76,-174,-244,-285,-694,-281,-76,-86,-230,-344,-672,-278,-73,-106,-261,-330,-727,-283,53,-31,-240,-329,-733,-284,-29,-16,-252,-348,-676,-280,1,8,-213,-286,-696,-284,-50,-56,-252,-332,-757,-283,-31,1,-236,-325,-772,-283,-49,18,-209,-335,-727,-283,2,28,-212,-307,-732,-284,-33,27,-217,-335,-723,-280,-3,3,-211,-343,-740,-281,-13,14,-194,-320,-710,-283,0,6,-250,-339,-710,-284,-17,17,-222,-344,-697,-283,-37,-38,-217,-372,-691,-281,-19,-59,-205,-374,-720,-283,0,-21,-287,-377,-716,-281,-10,-180,fall
-740,79,965,-284,198,2704,839,-1007,-2916,-283,769,368,1326,-153,-2285,-281,220,-292,272,199,-1155,-286,138,-466,629,-482,-812,-284,251,1241,287,-478,-656,-283,232,-1036,417,-553,-972,-286,-72,692,-68,-435,-718,-284,-46,344,-112,-450,-772,-286,69,-192,-79,-409,-697,-284,11,-48,-38,-488,-639,-283,-63,-88,-67,-437,-666,-284,-46,-104,-81,-456,-747,-286,-38,-49,-96,-466,-724,-283,-78,-106,-61,-436,-723,-283,5,-67,-129,-418,-670,-281,-24,-111,-173,-436,-723,-283,-6,-39,-171,-416,-780,-284,0,-28,-205,-432,-678,-283,-149,-52,-227,-406,-625,-284,-48,-30,-251,-454,-722,-283,-39,-36,-181,-390,-700,-283,6,-28,-210,-396,-665,-283,-52,-77,-213,-386,-687,-284,-6,-19,-212,-416,-714,-283,-43,-17,-181,-431,-699,-281,-22,2,-195,-374,-699,-283,-25,-19,-195,-397,-651,-284,-46,-43,-254,-403,-676,-283,-28,2,-180,-410,-724,-284,59,0,fall
-2495,-1100,-2365,-281,1305,3276,1767,280,423,-283,-556,-277,126,-310,-198,-281,-288,-1218,971,-363,-616,-280,153,69,694,-290,-860,-281,57,218,153,-505,-674,-281,8,42,12,-567,-972,-280,-106,-97,-102,-391,-899,-281,-125,16,-156,-386,-701,-283,-107,-122,-102,-340,-666,-283,-23,-118,-57,-324,-718,-286,-70,-98,-59,-411,-727,-284,129,-141,-112,-390,-733,-280,-14,-30,-106,-401,-669,-284,-7,-54,-156,-397,-715,-283,-13,16,-120,-404,-740,-281,-28,-48,-203,-390,-660,-280,-17,-4,-144,-413,-694,-281,-39,2,-222,-379,-676,-280,-3,-23,-164,-404,-697,-281,-8,8,-118,-422,-708,-283,-13,-3,-183,-437,-732,-284,-32,-58,-110,-376,-710,-283,5,-119,-128,-413,-680,-281,-35,-5,-208,-405,-685,-280,10,-39,-150,-385,-700,-278,4,57,-134,-404,-744,-283,5,2,-155,-421,-708,-281,-29,-10,-133,-412,-700,-283,-15,-25,-148,-421,-706,-281,-30,30,fall
108,-1027,-3141,-281,1446,317,1539,228,-2514,-280,-611,-1533,1534,-304,-1960,-283,513,-752,670,-275,-518,-283,-479,917,370,-208,-648,-280,-26,-1648,374,-380,-1200,-281,52,-933,-235,-325,-658,-286,8,440,-154,-371,-713,-281,87,-218,-202,-353,-692,-283,-38,-129,-62,-334,-703,-281,24,-142,-135,-401,-735,-283,67,-126,-154,-376,-769,-284,24,-63,-162,-362,-711,-283,-59,-116,-238,-467,-716,-281,114,6,-175,-340,-726,-283,101,-103,-229,-386,-611,-281,-42,-137,-265,-448,-689,-283,-39,-98,-192,-400,-700,-284,-32,28,-297,-396,-649,-280,-34,45,-241,-409,-654,-284,-2,-18,-178,-421,-703,-283,-36,0,-236,-442,-676,-284,-7,-16,-241,-420,-711,-280,4,33,-211,-432,-670,-281,23,-4,-217,-436,-688,-280,-36,-18,-256,-435,-675,-283,-20,-13,-215,-436,-750,-286,-15,-1,-193,-395,-730,-283,-4,6,-262,-435,-693,-281,-10,-29,-227,-422,-674,-283,-10,55,fall
-1760,-140,246,-280,184,1213,-1937,-357,219,-281,-63,1597,-988,-196,295,-283,-181,2033,-413,-542,-547,-284,620,2542,918,-378,-2719,-281,13,-617,2358,-1652,-1475,-280,-640,971,648,-455,-769,-284,-323,-52,801,-453,-345,-283,-161,-61,226,-478,-570,-281,42,-926,-160,-390,-1037,-280,-492,-814,-99,-505,-1077,-284,644,1835,-58,-441,-680,-281,103,-105,27,-411,-601,-286,-161,-190,-80,-434,-655,-284,-53,-68,-58,-350,-737,-283,-88,-38,-60,-410,-686,-283,-3,-75,-70,-464,-740,-283,-24,-15,-101,-356,-734,-284,-55,-42,-112,-388,-645,-286,-94,-28,-107,-385,-675,-278,-11,-35,-123,-398,-756,-283,-53,-37,-102,-342,-735,-281,-16,25,-148,-421,-703,-280,-19,-4,-95,-350,-720,-283,-65,-14,-62,-366,-709,-283,-7,-44,-121,-367,-747,-281,-67,-56,-90,-372,-749,-283,29,24,-73,-361,-731,-284,-61,-72,-136,-398,-715,-283,25,-3,-94,-389,-712,-278,-8,1,fall
-3276,-1114,-2551,-283,-767,3276,1561,931,292,-283,-261,-911,-257,-480,422,-284,-764,445,759,-157,-488,-283,-121,-441,768,-229,-953,-284,-12,-105,125,-381,-895,-283,65,-107,138,-247,-1026,-284,214,-22,78,-317,-898,-283,-11,-76,2,-414,-670,-284,25,-30,12,-397,-658,-286,125,-80,33,-431,-706,-284,70,25,42,-430,-723,-286,43,-23,53,-460,-676,-284,49,-23,56,-412,-702,-283,1,-16,75,-440,-712,-284,-19,9,34,-468,-719,-283,-31,-1,0,-432,-716,-284,-2,44,60,-466,-715,-283,-32,11,19,-469,-679,-288,-30,-33,23,-433,-732,-286,6,-10,-9,-490,-734,-284,-32,-43,32,-453,-702,-283,-50,14,18,-390,-702,-284,-6,-8,66,-404,-789,-286,-8,-19,32,-478,-765,-281,-99,-4,101,-452,-669,-286,-8,-17,-2,-454,-769,-284,-27,-65,44,-348,-720,-283,41,-49,-42,-455,-668,-288,-102,-46,-47,-452,-662,-283,-62,18,fall
-515,-277,688,-280,-43,973,-2820,-1457,-3148,-278,225,2457,-693,-61,871,-283,174,3276,-592,-150,844,-283,120,1081,353,-192,-1208,-278,46,-3186,1351,-446,-1342,-280,211,319,695,-132,-1698,-284,-361,65,-73,-693,-704,-283,-22,-280,84,-352,-796,-281,-18,-233,-236,-402,-678,-283,47,-62,-216,-318,-838,-281,100,-199,-115,-408,-802,-283,-18,-195,-178,-341,-620,-281,-29,-40,-233,-361,-613,-283,49,-122,-250,-394,-696,-280,9,-100,-174,-432,-753,-281,11,-33,-214,-392,-686,-283,11,-19,-251,-409,-705,-283,4,-48,-226,-445,-668,-280,48,-95,-263,-349,-652,-281,-231,-187,-215,-484,-738,-283,3,-37,-315,-376,-680,-281,-16,32,-272,-369,-629,-283,11,30,-298,-376,-680,-281,-8,28,-309,-403,-703,-283,-43,-14,-296,-410,-692,-280,-57,-39,-293,-373,-723,-280,26,-2,-310,-385,-671,-281,-11,-19,-247,-401,-698,-283,-22,-99,-268,-390,-638,-281,-12,-11,fall
-975,71,877,-276,-309,90,-794,-340,692,-275,286,553,-774,112,711,-276,556,59,-3276,-982,-2244,-278,842,3163,-2916,-1230,-944,-280,-85,3276,-766,-55,446,-276,-22,3276,532,-417,-538,-278,-748,-1885,1019,-157,-306,-280,59,-425,295,-431,-964,-278,-34,-410,182,-313,-1043,-283,-151,257,204,-453,-1169,-278,-47,34,21,-325,-992,-280,27,-37,-172,-346,-760,-278,86,-170,-201,-372,-701,-276,-1,-139,-287,-390,-716,-278,138,-209,-251,-414,-749,-280,69,-105,-173,-414,-648,-278,69,-264,-364,-418,-682,-280,41,-341,-308,-401,-757,-278,-236,-157,-383,-484,-640,-278,37,-69,-418,-412,-628,-280,-14,52,-432,-382,-593,-281,-54,1,-452,-428,-613,-276,-56,-16,-375,-418,-639,-280,-31,29,-380,-428,-647,-280,-16,69,-367,-417,-658,-278,-1,45,-416,-430,-649,-280,-9,-4,-387,-400,-657,-278,-98,3,-346,-423,-668,-280,-42,-32,-334,-407,-663,-278,4,17,fall
-1231,-115,-127,-276,-434,413,-1705,-17,-63,-278,222,471,-976,35,334,-276,-370,262,-888,-361,582,-275,642,168,-655,116,1044,-276,829,-794,-1225,-383,562,-275,-155,-202,-887,-102,555,-276,425,81,-297,-504,-1197,-281,632,2730,-2078,-896,-2520,-280,-401,3276,-740,-332,581,-280,-72,2173,708,384,-896,-278,-666,1096,1702,-612,-1173,-280,-533,-1295,824,132,-1227,-281,955,-907,630,-472,-1181,-280,-855,660,232,-437,-865,-278,245,-203,-46,-191,-1003,-280,111,-278,20,-528,-912,-280,-79,-38,-185,-258,-668,-278,12,-261,-146,-280,-714,-276,-33,-226,-42,-244,-636,-281,141,-155,-302,-262,-660,-280,-301,-273,-290,-453,-761,-281,32,26,-152,-202,-743,-276,98,-71,-280,-314,-590,-281,-1,64,-246,-344,-682,-283,31,40,-281,-342,-732,-278,-9,3,-206,-393,-770,-280,-17,29,-276,-360,-702,-278,40,6,-179,-340,-672,-280,-65,-8,-183,-356,-732,-278,-36,16,fall
-2527,362,-410,-275,415,1200,-1610,96,323,-278,37,74,-1285,-17,524,-278,18,242,-864,-12,773,-273,508,263,-649,176,820,-275,96,-231,-1632,107,358,-276,233,504,-486,-181,1039,-281,-179,705,-1921,-1159,-2076,-280,210,2981,-2808,185,-805,-280,-238,3276,1726,-674,-277,-275,-362,7,374,111,-90,-276,408,-325,691,-517,-342,-275,-1,-457,1668,-193,-1367,-280,140,-136,228,-745,-1160,-278,48,-287,83,-429,-989,-280,-25,-503,-124,-450,-779,-276,47,-214,-59,-466,-614,-280,-15,-99,-59,-473,-742,-276,51,-209,-88,-336,-691,-278,-49,-312,-134,-500,-725,-276,-52,-150,-252,-442,-709,-278,-7,-83,-109,-423,-585,-276,-114,-92,-238,-388,-665,-278,0,-19,-314,-398,-689,-276,-42,85,-188,-446,-692,-280,-3,38,-171,-442,-736,-280,-57,32,-211,-422,-702,-278,-44,27,-149,-417,-708,-276,21,-49,-158,-418,-713,-275,-16,-30,-175,-418,-712,-276,13,-19,fall
-153,-58,1081,-278,140,-109,-1198,-66,580,-276,187,151,652,-952,-1057,-278,656,1656,-3276,1157,-1972,-276,-1636,1416,-2934,-1407,1008,-276,962,3276,-982,248,382,-278,64,-922,1114,-452,-1180,-280,-241,124,1026,-299,-1391,-278,-612,-790,756,-1355,-1167,-280,-616,-100,151,-290,-945,-276,-60,-56,-170,-429,-578,-281,-94,-247,-186,-412,-645,-280,-132,-288,-106,-314,-844,-280,-52,-132,-110,-292,-839,-283,-12,-178,-191,-298,-587,-278,-22,-209,-86,-399,-633,-280,-149,-214,-210,-371,-791,-278,202,-16,-259,-368,-751,-276,1,-71,-234,-427,-674,-278,-56,46,-209,-350,-676,-280,-40,-15,-208,-396,-725,-278,-34,18,-257,-342,-749,-280,-13,11,-218,-341,-717,-275,-21,8,-214,-367,-710,-276,-42,-11,-250,-352,-702,-278,-19,-10,-242,-393,-718,-280,-27,-3,-255,-362,-772,-278,-1,-44,-243,-433,-786,-280,41,-43,-228,-418,-793,-278,68,-46,-312,-396,-626,-280,70,-2,fall
-920,2,872,-280,448,-77,-925,311,1008,-276,90,-135,-1734,24,953,-276,166,389,-746,-234,441,-278,299,897,-2211,-458,-1991,-280,501,2548,-2643,-642,-222,-281,-872,3276,64,-284,251,-280,1364,1282,473,243,-504,-278,-646,-2302,1139,-1124,-948,-280,155,-576,1776,-322,-1913,-276,-157,1372,-134,-182,-898,-278,-783,-2024,-284,-311,-914,-280,-311,-705,-514,-79,-824,-275,376,825,-371,-300,-539,-280,9,155,-177,-266,-728,-278,27,-185,-148,-250,-718,-280,65,-185,-109,-238,-706,-275,24,-263,-171,-310,-718,-278,105,-227,-211,-290,-621,-280,199,-104,-292,-183,-655,-278,-355,-143,-283,-496,-727,-276,76,50,-303,-326,-729,-281,65,53,-264,-312,-705,-276,-108,25,-249,-296,-776,-281,-99,-30,-267,-389,-741,-276,68,-82,-294,-311,-711,-278,19,-39,-304,-344,-674,-280,-22,-19,-287,-316,-704,-278,-34,-15,-311,-355,-678,-280,-18,-12,-288,-374,-704,-275,-3,-10,fall
-714,-83,833,-280,302,28,-651,220,1039,-278,428,-395,-500,-298,612,-280,27,-267,-893,-835,-176,-281,545,1374,-2396,-1187,-2214,-280,53,3276,-2223,-772,738,-278,-232,3276,991,257,182,-281,-375,-1511,1194,-685,-769,-283,-9,-259,448,-602,-526,-281,-91,57,485,-365,-781,-283,-568,566,156,-636,-772,-281,-48,-240,107,-347,-1081,-283,-233,-841,46,-510,-1116,-283,170,833,-286,-317,-713,-280,65,-397,-118,-257,-673,-281,32,-351,-184,-336,-577,-283,76,-332,-349,-357,-640,-284,-113,-279,-304,-543,-590,-280,77,-122,-392,-313,-660,-281,40,-135,-364,-452,-573,-280,-77,15,-400,-399,-552,-284,-64,80,-337,-373,-683,-283,-21,42,-328,-371,-717,-281,1,50,-358,-424,-713,-283,-41,12,-298,-376,-634,-281,-19,33,-303,-409,-652,-283,18,9,-314,-377,-722,-281,11,14,-294,-407,-704,-280,-4,42,-285,-419,-699,-281,-24,22,-303,-408,-702,-283,-63,-13,fall
-2389,-448,-1638,-281,311,3276,-2362,-1120,-1119,-280,-469,3276,-700,-95,16,-284,310,2273,876,-263,-1178,-278,-165,-2355,823,-288,-1123,-283,-495,-139,785,-206,-814,-284,205,-1407,850,-776,-1384,-280,427,-42,-21,-193,-806,-284,-574,-781,-248,-136,-880,-283,-207,-1013,-522,-257,-426,-281,289,550,-156,-229,-644,-280,-72,-308,-186,-328,-615,-283,50,-181,-280,-240,-700,-284,0,-191,-165,-305,-766,-280,-4,-86,-225,-277,-606,-280,90,-89,-320,-295,-625,-283,-48,-86,-296,-346,-687,-281,12,-113,-266,-321,-810,-283,38,-27,-313,-262,-716,-281,-77,-70,-302,-320,-702,-286,-53,-20,-272,-288,-722,-281,13,-5,-292,-302,-704,-280,-3,0,-308,-283,-683,-283,-51,7,-279,-291,-696,-280,-8,-32,-245,-281,-712,-281,-65,7,-258,-278,-692,-283,-12,6,-262,-278,-771,-281,-292,-150,-351,-226,-685,-283,65,18,-293,-283,-742,-281,30,-3,-321,-266,-690,-280,-11,-49,fall
-1241,65,487,-280,299,185,-715,-106,696,-283,681,240,-556,239,696,-280,-187,-657,-1374,-283,656,-281,103,13,-541,-388,102,-286,480,566,-2530,-48,-1824,-284,580,3166,-2960,-1077,-1649,-283,-680,3276,-320,-210,368,-283,722,2483,446,170,-731,-280,-7,-1057,954,-896,-1166,-283,-220,-715,1239,98,-1306,-284,-3,-1078,359,-194,-897,-283,-279,149,217,-480,-905,-284,358,-300,-24,-159,-1126,-283,166,-287,-143,-458,-797,-284,134,-157,-202,-296,-634,-286,122,-190,-193,-429,-637,-281,68,-193,-137,-364,-670,-286,72,-80,-153,-399,-673,-284,-51,-106,-190,-418,-643,-283,-24,31,-210,-370,-665,-284,-45,-6,-210,-406,-688,-281,-66,-13,-235,-402,-714,-283,-64,24,-264,-396,-707,-283,-28,-14,-175,-383,-731,-283,-31,-1,-164,-451,-710,-281,-57,-64,-212,-374,-704,-283,78,8,-186,-404,-700,-281,1,-10,-222,-409,-734,-283,-66,-38,-215,-410,-677,-284,-40,104,fall
-272,-232,248,-283,1284,75,-1305,21,657,-284,-621,-822,-790,-274,696,-283,210,-367,-536,-446,488,-284,-558,-453,-3190,-1310,-3276,-280,-71,3276,-2656,-715,306,-286,-990,3276,1252,786,475,-284,881,-679,798,-327,-446,-283,-869,131,268,390,-1113,-284,-92,-1085,816,114,-888,-280,51,35,243,-572,-1109,-284,25,-426,42,-150,-1176,-283,-144,-743,-91,-90,-1227,-284,-215,-239,-320,-362,-697,-286,95,604,-137,-328,-631,-283,85,-133,-126,-255,-766,-283,103,-98,-160,-311,-726,-283,18,-59,-280,-345,-762,-281,32,-54,-148,-257,-707,-283,-4,-21,-138,-235,-894,-284,-289,-45,-191,-450,-677,-286,-126,-78,-258,-212,-626,-284,150,-15,-240,-340,-702,-283,42,-108,-296,-314,-778,-284,53,23,-278,-248,-717,-283,6,66,-226,-357,-630,-284,-47,-54,-230,-356,-680,-283,60,5,-268,-370,-667,-281,71,22,-203,-372,-726,-286,2,-37,-201,-398,-740,-284,63,20,fall
-2144,-443,594,-286,74,-4,-1466,-401,634,-284,143,179,-1309,-224,682,-286,-168,406,-1599,-84,817,-284,-831,-139,-1678,-508,257,-280,-571,306,-1637,226,-230,-284,-1214,-251,-1707,-161,353,-286,106,-143,-1126,-146,528,-283,146,-140,-1284,128,573,-284,235,174,-1113,138,1080,-283,447,-393,-1722,-17,640,-284,-448,43,-1405,-74,722,-289,116,-67,-742,-674,486,-288,178,-206,-878,-202,-1742,-286,211,3276,-3276,-813,-2270,-288,-425,3041,-1764,-627,942,-288,-817,3276,1024,-802,-1500,-289,827,1466,1311,36,-500,-288,-23,-1961,90,-647,-528,-286,-276,-210,799,-144,-1834,-284,-148,1044,-167,-808,-906,-286,-85,-385,-89,-405,-1056,-288,-143,-759,-534,-454,-539,-284,205,499,-270,-334,-666,-286,62,-204,-197,-503,-678,-288,-107,-176,-288,-437,-598,-286,26,-106,-343,-359,-608,-284,-39,-64,-318,-402,-674,-283,-54,-76,-394,-395,-690,-288,30,-21,-389,-432,-700,-286,-58,-13,fall
-302,-480,-342,-286,-773,13,-1990,34,160,-284,218,-722,-1344,-24,618,-286,-190,-89,-899,-148,688,-284,450,-38,-974,182,1160,-286,251,-1122,-1213,-244,754,-284,245,209,-1259,-237,374,-283,163,88,-89,-269,-862,-284,480,2089,-3259,-1262,-2443,-286,-268,3100,-1513,-466,743,-286,-186,3276,638,-511,-1429,-286,137,1481,968,-256,-660,-283,218,-1601,523,-512,-728,-284,174,-51,808,158,-1250,-286,-205,1448,480,-604,-907,-288,-218,-214,410,-419,-895,-289,-99,-880,-18,-420,-711,-288,-23,-519,-41,-467,-659,-283,-20,-416,-142,-359,-666,-288,49,-186,-151,-403,-720,-289,-30,-30,-88,-364,-678,-289,-18,-37,-128,-336,-684,-288,-94,-93,-139,-414,-741,-286,-41,-1,-127,-382,-682,-288,-7,27,-139,-412,-745,-289,-34,55,-78,-376,-708,-286,-14,-15,-134,-398,-698,-286,-31,-31,-122,-372,-686,-284,-44,-42,-126,-390,-698,-286,-52,13,-101,-178,-810,-284,-57,-179,fall
-1345,242,478,-283,96,-293,-570,60,798,-281,-474,-78,-457,-311,1022,-280,245,60,-1581,-61,938,-280,515,159,-148,-236,-511,-281,524,2849,-2572,-898,-3276,-280,-53,3276,-1702,-218,776,-284,380,3276,894,-76,-1308,-280,-136,722,1390,-416,-720,-281,-164,-1021,1021,-394,-1000,-283,655,465,765,-118,-853,-280,-171,483,737,-612,-732,-281,-454,-733,418,-623,-709,-283,-68,-834,105,-274,-774,-284,-64,-682,-134,-391,-702,-283,-33,-248,-96,-449,-739,-283,-42,-121,-130,-353,-730,-283,22,-135,-16,-428,-712,-284,-5,-2,-108,-374,-672,-286,32,10,-80,-410,-795,-281,-3,-7,-16,-471,-775,-280,32,43,-28,-418,-810,-281,223,11,-54,-473,-696,-283,-173,-66,-64,-485,-720,-281,-57,-9,-24,-416,-699,-280,-61,-18,-38,-462,-703,-284,-8,-40,-88,-455,-727,-283,3,-13,-82,-427,-692,-281,-49,-4,-92,-466,-684,-283,-74,-19,-69,-426,-734,-281,5,5,fall
-1010,-417,69,-278,-354,-207,-2314,-36,498,-281,-263,-689,-1391,-10,582,-283,-275,-347,-1246,4,881,-283,-69,-300,-814,64,828,-283,-25,-178,-710,-40,919,-278,648,433,-203,-170,-148,-283,448,527,-2300,-362,-1727,-281,916,3276,-3276,-1283,-888,-283,-1175,3276,-1510,325,483,-280,-590,3276,1021,-1392,-1465,-286,-100,923,1883,-124,-911,-283,-1679,-888,1130,-388,-1045,-284,790,-406,424,-323,-923,-283,-189,118,386,-385,-860,-284,96,-576,195,-430,-947,-283,51,-227,-71,-546,-868,-281,135,-448,-236,-442,-656,-283,83,-293,-78,-478,-545,-283,119,-158,-191,-402,-543,-284,51,-158,-125,-459,-720,-286,-175,-45,-160,-483,-678,-284,-21,148,-160,-484,-738,-283,18,66,-94,-481,-746,-284,-32,63,-64,-506,-692,-283,31,-16,-116,-467,-655,-286,5,-21,-108,-477,-648,-286,-15,-3,-106,-468,-721,-284,-15,23,-72,-476,-715,-286,-41,24,-101,-490,-679,-281,-18,-6,fall
-1490,158,-266,-278,-281,494,-1632,107,853,-283,-41,-669,-1423,32,673,-284,-569,-112,-949,13,961,-283,38,20,-589,-2,1030,-281,552,-75,-262,-527,271,-286,201,573,-3276,-656,-1847,-280,348,2258,-3218,-1142,-628,-284,-765,3133,-1710,175,478,-286,141,3276,1530,-1460,-2178,-284,379,1179,1518,-334,-1466,-283,-479,-1293,1271,-681,-530,-286,1068,2910,1036,-425,-697,-281,38,483,949,-444,-622,-283,-210,-726,631,-544,-716,-284,-118,-1078,164,-462,-633,-283,-38,-869,131,-529,-737,-284,63,-433,74,-461,-666,-283,73,-159,141,-467,-624,-281,-37,-67,58,-479,-675,-283,-67,-47,93,-522,-709,-281,-13,94,179,-513,-783,-283,22,126,184,-470,-710,-281,-58,-23,194,-501,-699,-283,48,-23,182,-486,-710,-283,-36,-96,122,-545,-640,-284,20,-8,106,-515,-673,-283,-12,83,186,-511,-684,-286,-32,1,132,-518,-719,-283,-53,-11,170,-485,-727,-284,-39,9,fall
-1596,-790,-950,-283,-319,3276,-1922,-1179,-2034,-284,146,3276,-25,-729,-1342,-286,881,463,848,-717,-592,-284,-525,678,1998,-380,-1497,-283,-337,-676,1297,-307,-1116,-283,-198,-51,295,-237,-838,-284,-39,52,148,-384,-812,-286,-108,-18,213,-293,-864,-283,35,37,-126,-236,-746,-280,-31,-136,24,-255,-774,-288,-83,-120,104,-270,-727,-286,-24,-101,104,-310,-703,-288,-21,-197,83,-257,-747,-283,30,-98,15,-258,-723,-284,105,-95,-22,-324,-790,-286,27,5,22,-364,-818,-284,-7,2,-25,-341,-717,-283,-53,-29,-5,-335,-790,-284,23,-58,-53,-320,-758,-286,-21,-92,5,-332,-708,-284,26,-79,-25,-352,-677,-286,13,-48,-40,-367,-736,-281,45,-10,-86,-313,-643,-283,15,-22,-48,-361,-652,-288,-44,-29,-38,-416,-729,-283,-6,17,-26,-411,-736,-284,-41,-37,-49,-394,-720,-283,-44,23,-56,-419,-671,-281,8,-64,-16,-380,-712,-286,-8,-34,fall
-2331,-901,-1904,-283,-354,3276,5,-726,-887,-281,919,2860,305,57,145,-283,-600,476,1107,-468,-716,-281,-268,-1029,968,-190,-1534,-281,166,-1120,361,-492,-1217,-280,43,96,187,-520,-852,-281,93,-210,82,-528,-856,-280,-36,-132,16,-444,-704,-281,8,-102,-83,-418,-655,-283,-68,-112,-66,-467,-744,-281,-160,-17,-3,-364,-776,-280,-81,-47,-49,-348,-621,-284,-95,-119,-56,-405,-646,-280,-30,-105,-110,-394,-690,-281,-31,-80,-136,-428,-708,-280,-32,17,-46,-382,-685,-278,-39,45,-118,-378,-678,-283,-40,6,-100,-407,-709,-281,4,-17,-44,-384,-785,-283,6,-11,-66,-392,-742,-281,1,20,-65,-396,-712,-283,-33,-6,-80,-392,-723,-281,13,-25,-49,-381,-725,-283,-37,-21,-91,-369,-720,-284,-8,-8,-70,-393,-677,-283,-60,-8,-36,-368,-705,-284,-23,-15,-80,-411,-739,-283,-6,-3,-53,-384,-709,-278,-15,-35,-39,-402,-715,-283,-1,-36,fall
-2674,-1060,-1351,-283,-240,3276,-494,-847,-105,-283,1012,2648,978,-239,-572,-281,-870,-632,1438,-640,-860,-280,-349,-561,830,-636,-1047,-281,316,-280,303,-352,-1229,-280,-370,-4,305,-559,-1083,-281,-266,-218,-144,-252,-747,-283,-67,18,-52,-314,-705,-283,-32,-263,-30,-343,-709,-278,2,-182,-38,-328,-660,-280,0,-60,-69,-354,-658,-281,18,-18,-102,-357,-754,-280,-28,-14,-58,-368,-756,-281,4,-29,-50,-319,-752,-283,14,-19,-92,-321,-764,-283,-4,-100,-74,-322,-762,-283,-57,-87,-94,-313,-718,-281,-21,-30,-134,-355,-729,-280,4,-28,-124,-318,-775,-281,55,-23,-72,-370,-716,-280,-16,-31,-107,-377,-706,-281,-12,2,-136,-362,-739,-276,8,5,-104,-381,-747,-280,-58,-9,-130,-481,-685,-283,94,0,-96,-318,-693,-281,32,-50,-156,-389,-702,-280,-12,-99,-170,-396,-686,-278,18,-40,-175,-411,-685,-280,-41,-11,-183,-410,-698,-281,-36,-6,fall
94,-425,-1229,-278,306,327,2872,-1046,-1875,-276,-1217,1866,1176,-651,49,-280,590,2009,1482,-444,164,-281,9,-816,1001,-313,-793,-280,-316,-2979,760,-684,-796,-281,136,367,150,-566,-761,-276,-67,-187,164,-436,-659,-281,-186,-191,214,-491,-506,-280,-112,-92,245,-352,-703,-281,-137,-161,289,-486,-748,-280,-49,-89,284,-384,-659,-278,-17,12,196,-512,-618,-280,-70,0,247,-477,-693,-278,-6,-37,285,-468,-713,-276,29,-67,232,-438,-747,-278,-60,-28,255,-451,-755,-280,21,-33,143,-420,-651,-278,-15,-41,216,-477,-677,-280,34,-47,228,-511,-672,-280,-51,-9,198,-427,-642,-278,-1,62,213,-462,-705,-276,26,-75,188,-404,-746,-278,-62,-77,140,-472,-760,-280,-8,56,164,-418,-594,-280,-120,-71,222,-370,-720,-280,86,19,168,-441,-656,-275,-43,-41,153,-478,-673,-276,-104,41,217,-495,-656,-281,-5,-17,111,-441,-708,-276,21,13,fall
-633,-187,1032,-275,306,-16,-1426,217,788,-276,220,664,-63,-344,-73,-278,-91,1244,-1290,-2422,-3276,-280,689,3276,1257,1272,1838,-278,-1059,-3276,102,-852,-125,-280,-473,18,881,-421,-426,-278,179,-315,1184,-414,-514,-280,-91,342,562,-322,-666,-276,86,53,660,-282,-1342,-278,-278,-8,498,-488,-966,-276,30,-16,185,-397,-660,-281,-73,-5,284,-383,-574,-280,-2,-92,206,-360,-729,-280,-79,-39,293,-358,-696,-280,76,-6,324,-417,-678,-278,-23,7,386,-366,-709,-280,45,-119,259,-388,-718,-278,-47,-132,254,-375,-674,-276,-63,-7,260,-378,-749,-281,-58,-43,231,-483,-712,-280,18,-60,315,-352,-716,-276,44,-91,214,-425,-619,-280,-11,-60,228,-436,-675,-278,-2,-33,210,-332,-725,-280,21,-138,172,-426,-737,-275,-78,-9,219,-364,-702,-280,-62,93,160,-388,-766,-278,29,41,204,-435,-777,-276,5,9,300,-390,-774,-276,-11,-32,fall
2213,-1139,-2144,-280,-200,-620,1258,-400,36,-281,-265,3276,1402,-250,266,-280,68,635,1396,-208,360,-278,-336,-1147,992,-325,-376,-276,-234,-3276,571,-360,-749,-280,46,-2229,166,-590,-630,-276,33,384,160,-267,-651,-276,264,954,486,-410,-639,-278,-43,-141,413,-390,-694,-280,13,-174,413,-493,-719,-278,52,-125,290,-311,-577,-276,-46,-125,271,-331,-673,-281,5,-102,298,-477,-636,-273,23,-113,268,-358,-741,-278,-31,-117,284,-408,-670,-276,-2,-55,232,-450,-739,-278,-72,-33,227,-420,-674,-280,-35,-21,215,-334,-733,-275,-166,-21,208,-501,-764,-276,44,-69,298,-229,-585,-275,44,-9,200,-410,-653,-276,34,-27,182,-382,-732,-278,52,39,256,-368,-738,-276,14,-9,234,-434,-713,-275,-17,6,272,-400,-743,-280,-21,6,220,-418,-752,-278,-45,-13,224,-416,-624,-280,4,-10,196,-444,-688,-275,6,-30,252,-426,-771,-280,126,22,fall
-655,-95,896,-275,0,2209,1584,-457,-643,-276,79,-265,1275,-1285,-2154,-275,362,-2594,1558,-270,-2415,-276,289,140,344,-329,-687,-276,-425,433,361,-255,-860,-278,-83,-254,53,-197,-1019,-276,111,-269,15,-385,-788,-275,-54,-87,-46,-352,-723,-273,63,-119,123,-361,-711,-278,-20,-27,154,-364,-716,-276,-46,53,174,-399,-703,-276,24,-23,182,-290,-747,-276,-83,-63,141,-379,-722,-278,53,-69,194,-356,-767,-276,3,-64,110,-388,-669,-278,-94,35,134,-304,-742,-273,38,-82,165,-394,-735,-278,-26,-57,84,-311,-732,-276,-92,0,136,-432,-688,-275,11,-94,111,-416,-805,-276,9,-59,109,-428,-786,-275,56,16,159,-387,-702,-280,0,6,73,-404,-752,-275,-14,-52,107,-425,-693,-276,-63,25,64,-390,-672,-278,4,-106,28,-365,-698,-276,-18,-41,76,-412,-728,-275,8,13,57,-453,-670,-276,-4,73,54,-438,-691,-275,3,34,fall
-2796,-1483,-3276,-276,20,3276,-634,-574,-248,-272,352,2901,1522,-122,-1219,-275,-321,-471,1288,-216,-914,-273,-215,-839,524,-199,-548,-275,-211,-77,880,-433,-1113,-273,-250,598,406,-342,-889,-275,27,-290,195,-398,-855,-273,54,62,210,-358,-749,-275,75,36,123,-372,-710,-276,-7,-71,206,-333,-686,-272,-1,41,215,-442,-771,-276,123,-100,252,-350,-718,-272,36,-23,269,-406,-724,-273,53,-16,157,-396,-669,-272,-33,-34,168,-499,-730,-273,-50,44,183,-352,-771,-275,-64,-150,114,-508,-730,-273,-11,-8,231,-374,-775,-275,58,-49,96,-427,-810,-270,-35,-59,236,-396,-703,-272,-35,-81,58,-412,-683,-273,-74,1,142,-464,-757,-275,-81,95,102,-396,-794,-276,45,28,222,-456,-777,-272,24,6,220,-420,-763,-276,-30,-10,115,-379,-734,-275,10,24,156,-438,-724,-273,-56,-5,82,-410,-719,-278,-36,-64,119,-396,-754,-273,-37,-22,fall
-415,-230,633,-273,31,162,-2924,-266,-1523,-272,353,2984,-2894,-1065,-2053,-275,-611,3276,-1612,-123,326,-273,298,3276,2390,-212,-1474,-272,164,88,880,-54,-631,-273,-479,-1233,988,-494,-839,-272,433,-556,897,-118,-1486,-273,-455,-257,129,-504,-1074,-272,118,-267,70,-132,-976,-272,60,41,-32,-379,-798,-270,12,-179,-172,-245,-711,-272,41,-356,36,-349,-705,-273,-41,-241,-92,-262,-663,-273,24,-96,-142,-350,-696,-273,-30,-138,-137,-332,-714,-268,-22,-96,-170,-313,-680,-273,4,-60,-196,-308,-763,-272,34,-10,-143,-305,-755,-270,10,-68,-160,-310,-729,-272,27,-41,-169,-336,-692,-273,30,-6,-240,-327,-698,-273,41,19,-189,-370,-733,-270,-1,92,-218,-356,-724,-272,1,-5,-157,-412,-758,-270,3,-139,-78,-402,-719,-272,-13,-88,-158,-478,-721,-270,117,49,-154,-258,-724,-272,8,-64,-287,-425,-621,-270,-83,14,-258,-404,-638,-272,-21,-28,fall
504,-160,-39,-267,47,540,-3223,-1606,-3276,-268,-237,3276,-2368,-9,28,-270,-549,3276,3268,-250,-1686,-268,408,492,872,-510,-564,-270,268,-861,534,-367,-298,-268,313,-840,1291,-208,-1288,-267,-143,327,276,-660,-878,-267,-204,15,318,-258,-1019,-265,67,-142,81,-501,-774,-270,-147,12,-24,-321,-755,-267,128,-196,25,-434,-867,-270,376,-664,20,-394,-632,-268,54,-77,-91,-388,-648,-270,-146,-146,-44,-431,-699,-268,-70,13,-79,-412,-721,-270,-120,14,19,-434,-768,-265,-65,61,-13,-374,-780,-264,-9,-54,22,-392,-690,-270,-47,-26,-79,-412,-680,-267,0,8,-102,-407,-691,-268,-42,-81,-33,-432,-724,-270,-58,0,-21,-398,-738,-268,20,16,-11,-413,-690,-267,-13,62,-27,-427,-696,-265,-7,-2,-62,-404,-720,-267,52,23,17,-416,-764,-270,-24,-72,20,-421,-746,-270,-31,-42,-42,-420,-724,-270,-52,17,-33,-422,-709,-267,-18,-7,fall
-261,-92,357,-272,-30,1775,-589,-144,439,-270,290,2059,1119,-843,-3135,-272,1370,-1826,3276,-1319,-3276,-273,719,3276,127,-222,-347,-268,-173,-2933,1107,-330,-226,-272,-66,-182,547,-532,-667,-270,-141,-1189,342,-463,-999,-275,-401,-980,-47,-417,-988,-270,81,1142,195,-458,-775,-272,130,-132,149,-352,-689,-273,-187,-78,343,-432,-708,-268,-181,-286,49,-418,-691,-273,-30,38,134,-328,-707,-272,-50,-78,97,-380,-756,-273,-24,-3,167,-316,-838,-272,33,-45,68,-414,-674,-273,-65,44,108,-408,-707,-275,11,33,56,-351,-713,-273,-39,8,194,-326,-768,-275,-14,-73,126,-380,-721,-270,55,0,112,-418,-741,-272,-16,-29,144,-376,-750,-273,-22,-13,98,-385,-798,-272,71,-32,141,-386,-741,-273,21,-71,136,-358,-725,-272,-19,-12,58,-387,-684,-273,-53,55,85,-431,-698,-275,33,42,35,-430,-696,-276,32,-4,163,-375,-762,-272,-26,-56,fall
-394,18,1117,-273,-628,2106,683,-2302,-3276,-272,723,1171,2386,-777,-1630,-272,600,2304,1354,-485,478,-273,564,3276,1710,-491,344,-275,-595,-820,1586,-128,629,-273,-177,-1342,802,-470,-101,-275,-350,-837,816,-524,-562,-273,-184,-1040,930,-494,-581,-276,-198,-376,759,-297,-460,-272,-104,-4,896,-304,-564,-270,-148,21,915,-290,-457,-273,-233,-79,899,-241,-550,-273,-14,13,893,-265,-538,-272,-41,-23,826,-184,-591,-273,-35,-218,869,-373,-452,-272,563,-625,1078,-295,-807,-270,-131,-6,502,-389,-603,-268,-36,-193,450,-364,-735,-273,53,-163,397,-398,-671,-272,-19,-163,354,-376,-610,-270,12,-125,242,-404,-644,-275,-111,-147,381,-467,-592,-270,0,-87,327,-395,-737,-268,-11,32,295,-418,-697,-273,9,8,270,-437,-717,-272,-7,-29,404,-482,-747,-276,-100,6,294,-394,-739,-272,-259,-111,376,-405,-660,-273,19,-99,273,-362,-772,-272,64,-78,fall
284,-2590,-3276,-272,1469,2906,2620,404,-2489,-273,-600,1331,1273,-394,-106,-270,66,-655,143,-249,522,-275,-168,-32,1051,-382,43,-273,202,670,888,-507,-91,-275,338,565,940,-726,-1075,-270,-166,-691,692,-495,-759,-268,-384,-241,613,-396,-514,-273,18,-147,760,-401,-636,-272,79,-254,506,-554,-575,-273,4,-136,556,-338,-671,-272,-81,-260,444,-466,-594,-273,-52,-211,328,-440,-630,-272,86,-128,535,-460,-570,-276,-155,-41,371,-430,-571,-272,41,-4,435,-422,-644,-273,-138,-76,469,-517,-696,-275,-44,-111,375,-416,-618,-276,-36,21,439,-345,-685,-276,-59,-114,267,-450,-649,-272,-16,-52,408,-393,-702,-273,-120,-56,424,-488,-714,-270,-24,1,379,-371,-658,-273,-62,12,353,-509,-645,-272,35,-80,300,-437,-749,-276,0,-61,400,-407,-761,-275,-44,-26,305,-514,-655,-276,-157,-39,461,-336,-787,-275,-83,-107,424,-394,-760,-276,-80,-108,fall
-2829,-3276,-3276,-268,665,3276,-248,-1279,-465,-273,700,1785,-33,-107,-695,-270,-1188,2797,1663,-366,-556,-272,-178,-849,1154,-611,-770,-273,-246,-199,90,-363,-1056,-272,-28,-74,438,-353,-1143,-270,-150,119,158,-437,-784,-272,-185,70,128,-240,-753,-273,79,-173,-30,-349,-657,-272,-2,-218,167,-280,-770,-273,21,-221,146,-356,-647,-275,21,-204,16,-366,-700,-273,15,-190,90,-349,-732,-278,-15,-72,7,-398,-670,-270,-65,-101,-14,-368,-822,-272,36,35,24,-368,-757,-270,80,-65,-96,-371,-712,-272,28,-101,76,-398,-679,-270,-66,-222,-63,-450,-701,-272,-26,-137,-109,-431,-737,-273,4,-97,-9,-380,-685,-272,-18,1,-164,-412,-678,-270,63,14,-113,-448,-694,-272,-7,-21,-107,-460,-709,-273,28,19,-78,-429,-730,-275,-34,-6,-56,-451,-690,-273,-40,-33,-107,-462,-754,-272,0,16,-82,-441,-744,-273,-28,50,-179,-487,-745,-272,-29,77,fall
-3098,-1505,-3276,-272,-218,3149,-1947,-347,104,-270,-636,3276,-434,-160,653,-273,405,2286,90,252,-1018,-268,-510,-1721,1156,-951,-641,-270,-109,-205,584,-109,-1259,-268,-538,-39,388,-376,-1058,-270,-408,29,-134,-286,-893,-265,243,-89,-150,-272,-880,-270,-62,-18,-260,-313,-611,-272,78,-33,38,-248,-633,-270,128,99,-68,-362,-657,-272,164,-20,-65,-356,-830,-270,24,88,-56,-346,-809,-268,-45,-62,5,-482,-676,-270,73,-79,-15,-391,-750,-268,49,-69,-98,-426,-685,-270,51,-71,-126,-402,-685,-270,-33,-40,-185,-450,-653,-268,-15,-8,-121,-435,-651,-270,0,-24,-78,-439,-719,-268,-59,0,-119,-452,-719,-270,-45,0,-22,-446,-724,-268,9,-36,-114,-432,-700,-264,-5,-1,-140,-438,-667,-270,-15,2,-108,-473,-706,-270,17,-28,-145,-438,-684,-265,-36,43,-134,-473,-689,-267,15,-103,-152,-415,-806,-268,-24,-100,-96,-486,-726,-264,17,-89,fall
-1163,-2747,360,-268,-1432,3276,427,-74,-790,-272,1114,2053,974,-410,132,-270,183,-47,859,-626,-171,-272,-160,-1095,379,-564,-920,-273,-551,-2679,-168,-492,-597,-272,607,981,32,-601,-511,-270,-135,-323,178,-524,-670,-272,-76,-161,249,-576,-602,-270,-89,-198,187,-557,-697,-268,-46,-232,123,-474,-705,-273,47,-170,52,-527,-661,-272,-55,-134,86,-596,-635,-270,-20,-78,25,-529,-698,-272,35,-1,16,-559,-666,-270,-39,-61,44,-550,-708,-272,16,-4,67,-541,-682,-273,-32,-46,43,-580,-747,-272,10,-7,88,-498,-700,-273,-60,-68,94,-555,-545,-272,-72,83,-75,-623,-518,-270,-78,-152,66,-398,-715,-268,127,-82,12,-620,-607,-273,-144,-38,-18,-538,-704,-272,-25,-10,-5,-601,-624,-270,-11,81,17,-530,-678,-272,-2,-82,-10,-617,-734,-270,-44,43,79,-448,-733,-272,-68,-10,-111,-620,-555,-267,15,-61,-30,-516,-696,-272,-51,45,fall
-437,-155,416,-268,253,1073,-364,-118,456,-270,-164,1572,-665,-620,-925,-268,349,3276,-1281,-1287,-547,-270,-613,2293,308,-1254,-516,-270,-1034,2382,1725,-542,-690,-272,-86,-214,704,-510,332,-270,203,-278,982,-385,-585,-268,-247,473,627,-598,-753,-270,-1053,-1262,184,-320,-1042,-272,-448,-405,190,-172,-723,-270,9,109,283,-294,-670,-272,-112,108,286,-223,-768,-268,-179,-61,262,-184,-782,-270,-115,-81,271,-192,-782,-267,-61,-26,251,-164,-757,-270,-56,-44,281,-172,-744,-272,-51,-20,250,-172,-756,-270,-100,-62,263,-149,-707,-265,-14,44,233,-160,-772,-270,7,-18,262,-171,-770,-272,28,60,263,-184,-754,-267,28,32,274,-184,-746,-270,-4,3,284,-198,-749,-270,-35,7,286,-184,-746,-268,-45,-34,263,-175,-751,-267,-36,-21,262,-175,-716,-268,-27,10,280,-172,-751,-270,-35,3,270,-182,-774,-268,-14,-7,282,-166,-764,-264,-12,-30,fall
-935,-1580,-2613,-268,2704,1841,2093,-600,-596,-272,-972,-1728,636,-584,-475,-270,-207,278,938,-410,-310,-268,70,482,1318,-243,-483,-270,128,-12,244,-311,-588,-272,294,-1451,71,-212,-938,-270,-638,-1563,319,-435,-1223,-268,314,1106,-845,-440,-94,-270,458,1721,221,-310,-416,-268,79,-85,294,-509,-672,-267,-55,-323,224,-256,-766,-268,-145,-170,174,-465,-753,-267,-243,-187,146,-306,-712,-268,106,-197,60,-350,-718,-270,32,-164,134,-361,-796,-267,40,-166,138,-379,-725,-272,8,-190,88,-420,-746,-273,97,-62,43,-392,-756,-267,-53,-58,37,-430,-722,-272,-18,-111,10,-301,-684,-270,-151,-64,-12,-472,-682,-272,-25,-86,-3,-436,-726,-273,-58,-32,-6,-390,-717,-268,32,-177,-144,-378,-686,-270,59,-42,-79,-435,-689,-272,-44,25,-116,-419,-711,-270,-16,39,-34,-412,-742,-272,13,-5,-35,-384,-700,-270,-38,-12,-53,-395,-734,-268,-88,10,fall
